File: penetration_test_GCTFast_20210401.csv
Reading,Load [N],Travel [mm],Time,Displacement [mm]
1,-0.5,-69,0,69
6,0,-69,0.296,69
11,0,-69,0.545,69
16,0,-69,0.796,69
21,0.5,-69,1.045,69
26,0.5,-69,1.296,69
31,1,-69.02,1.546,69.02
36,1,-69.02,1.795,69.02
41,1,-69.02,2.046,69.02
46,1,-69.02,2.297,69.02
51,1,-69.02,2.545,69.02
56,1,-69.02,2.795,69.02
61,1,-69.02,3.045,69.02
66,1.5,-69.02,3.295,69.02
71,1.5,-69.02,3.545,69.02
76,1.5,-69.02,3.795,69.02
81,1.5,-69.02,4.045,69.02
86,2,-69.02,4.296,69.02
91,1.5,-69.02,4.546,69.02
96,2,-69.02,4.795,69.02
101,2,-69.02,5.045,69.02
106,2,-69.02,5.295,69.02
111,2,-69.02,5.545,69.02
116,2,-69.02,5.796,69.02
121,2,-69.02,6.046,69.02
126,2,-69.02,6.295,69.02
131,2,-69.02,6.545,69.02
136,2,-69.06,6.796,69.06
141,2,-69.06,7.045,69.06
146,2,-69.06,7.295,69.06
151,2,-69.06,7.546,69.06
156,2.5,-69.06,7.795,69.06
161,2,-69.06,8.045,69.06
166,2.5,-69.06,8.295,69.06
171,2.5,-69.06,8.545,69.06
176,2.5,-69.06,8.795,69.06
181,2.5,-69.06,9.046,69.06
186,2.5,-69.06,9.295,69.06
191,2.5,-69.06,9.545,69.06
196,2.5,-69.06,9.796,69.06
201,2.5,-69.06,10.045,69.06
206,2.5,-69.06,10.295,69.06
211,2.5,-69.08,10.545,69.08
216,2.5,-69.08,10.795,69.08
221,2.5,-69.08,11.045,69.08
226,2.5,-69.08,11.295,69.08
231,2.5,-69.08,11.545,69.08
236,2.5,-69.08,11.795,69.08
241,2.5,-69.08,12.045,69.08
246,2.5,-69.08,12.296,69.08
251,2.5,-69.08,12.546,69.08
256,3,-69.08,12.796,69.08
261,3,-69.08,13.045,69.08
266,3,-69.08,13.296,69.08
271,2.5,-69.08,13.546,69.08
276,2.5,-69.08,13.795,69.08
281,3,-69.08,14.046,69.08
286,2.5,-69.08,14.296,69.08
291,3,-69.08,14.546,69.08
296,3,-69.08,14.795,69.08
301,3,-69.08,15.045,69.08
306,3,-69.08,15.296,69.08
311,3,-69.1,15.545,69.1
316,3,-69.1,15.796,69.1
321,3,-69.1,16.045,69.1
326,3,-69.1,16.296,69.1
331,3,-69.1,16.546,69.1
336,3,-69.1,16.795,69.1
341,3,-69.1,17.045,69.1
346,3,-69.1,17.295,69.1
351,3,-69.1,17.546,69.1
356,3,-69.1,17.795,69.1
361,3,-69.1,18.046,69.1
366,3,-69.1,18.295,69.1
371,3,-69.1,18.545,69.1
376,3,-69.1,18.795,69.1
381,3,-69.12,19.045,69.12
386,3,-69.12,19.296,69.12
391,3,-69.12,19.546,69.12
396,3,-69.12,19.795,69.12
401,3,-69.12,20.045,69.12
406,3,-69.12,20.295,69.12
411,3,-69.12,20.545,69.12
416,3,-69.12,20.796,69.12
421,3,-69.12,21.045,69.12
426,3,-69.12,21.295,69.12
431,3,-69.12,21.546,69.12
436,3,-69.12,21.796,69.12
441,3,-69.12,22.046,69.12
446,3,-69.12,22.296,69.12
451,3,-69.12,22.545,69.12
456,3,-69.12,22.795,69.12
461,3,-69.12,23.045,69.12
466,3,-69.12,23.295,69.12
471,3.5,-69.12,23.545,69.12
476,3,-69.12,23.795,69.12
481,3,-69.12,24.045,69.12
486,3,-69.12,24.295,69.12
491,3,-69.16,24.546,69.16
496,3.5,-69.16,24.796,69.16
501,3,-69.16,25.046,69.16
506,3.5,-69.16,25.295,69.16
511,3,-69.16,25.545,69.16
516,3.5,-69.16,25.795,69.16
521,3,-69.16,26.045,69.16
526,3,-69.16,26.295,69.16
531,3.5,-69.16,26.546,69.16
536,3,-69.16,26.795,69.16
541,3.5,-69.16,27.045,69.16
546,3,-69.16,27.296,69.16
551,3.5,-69.16,27.545,69.16
556,3,-69.16,27.795,69.16
561,3.5,-69.18,28.046,69.18
566,3,-69.18,28.295,69.18
571,3,-69.18,28.545,69.18
576,3.5,-69.18,28.795,69.18
581,3.5,-69.18,29.045,69.18
586,3.5,-69.18,29.295,69.18
591,3.5,-69.18,29.545,69.18
596,3.5,-69.18,29.795,69.18
601,3.5,-69.18,30.045,69.18
606,3.5,-69.18,30.295,69.18
611,3.5,-69.18,30.545,69.18
616,3.5,-69.18,30.795,69.18
621,3.5,-69.18,31.045,69.18
626,3.5,-69.18,31.296,69.18
631,3.5,-69.18,31.545,69.18
636,3.5,-69.18,31.795,69.18
641,3.5,-69.18,32.046,69.18
646,3.5,-69.18,32.296,69.18
651,3.5,-69.18,32.545,69.18
656,3.5,-69.18,32.795,69.18
661,3.5,-69.18,33.045,69.18
666,3.5,-69.2,33.296,69.2
671,3.5,-69.2,33.545,69.2
676,3.5,-69.2,33.796,69.2
681,3.5,-69.2,34.046,69.2
686,3.5,-69.2,34.295,69.2
691,3.5,-69.2,34.545,69.2
696,3.5,-69.2,34.795,69.2
701,3.5,-69.2,35.045,69.2
706,3.5,-69.2,35.296,69.2
711,3.5,-69.2,35.545,69.2
716,3.5,-69.2,35.795,69.2
721,4,-69.2,36.045,69.2
726,3.5,-69.2,36.295,69.2
731,3.5,-69.2,36.545,69.2
736,3.5,-69.2,36.795,69.2
741,3.5,-69.2,37.045,69.2
746,3.5,-69.2,37.295,69.2
751,4,-69.2,37.545,69.2
756,4,-69.2,37.796,69.2
761,3.5,-69.2,38.045,69.2
766,4,-69.2,38.295,69.2
771,4,-69.2,38.546,69.2
776,4,-69.24,38.796,69.24
781,4,-69.24,39.045,69.24
786,3.5,-69.24,39.295,69.24
791,4,-69.24,39.545,69.24
796,3.5,-69.24,39.795,69.24
801,4,-69.24,40.046,69.24
806,3.5,-69.24,40.296,69.24
811,4,-69.24,40.545,69.24
816,4,-69.24,40.795,69.24
821,4,-69.24,41.046,69.24
826,4,-69.24,41.296,69.24
831,4,-69.24,41.546,69.24
836,4,-69.24,41.795,69.24
841,4,-69.24,42.047,69.24
846,4,-69.26,42.295,69.26
851,4,-69.26,42.545,69.26
856,4,-69.26,42.796,69.26
861,4,-69.26,43.045,69.26
866,4,-69.26,43.296,69.26
871,4,-69.26,43.546,69.26
876,4,-69.26,43.795,69.26
881,4,-69.26,44.045,69.26
886,4,-69.26,44.296,69.26
891,4,-69.26,44.596,69.26
896,4,-69.26,44.845,69.26
901,4,-69.26,45.096,69.26
906,4,-69.26,45.346,69.26
911,4,-69.26,45.595,69.26
916,4,-69.26,45.845,69.26
921,4,-69.26,46.145,69.26
926,4,-69.26,46.396,69.26
931,4,-69.26,46.646,69.26
936,3.5,-69.26,46.895,69.26
941,4,-69.26,47.145,69.26
946,4,-69.26,47.396,69.26
951,4,-69.28,47.645,69.28
956,4,-69.28,47.895,69.28
961,4,-69.28,48.146,69.28
966,4,-69.28,48.395,69.28
971,4,-69.28,48.646,69.28
976,4,-69.28,48.895,69.28
981,4,-69.28,49.145,69.28
986,4,-69.28,49.396,69.28
991,4,-69.28,49.645,69.28
996,4,-69.28,49.896,69.28
1001,4,-69.28,50.145,69.28
1006,4,-69.28,50.396,69.28
1011,4,-69.28,50.645,69.28
1016,4,-69.28,50.896,69.28
1021,4,-69.3,51.146,69.3
1026,4,-69.3,51.395,69.3
1031,4,-69.3,51.645,69.3
1036,4,-69.3,51.895,69.3
1041,4,-69.3,52.145,69.3
1046,4,-69.3,52.395,69.3
1051,4,-69.3,52.647,69.3
1056,4,-69.3,52.895,69.3
1061,4,-69.3,53.145,69.3
1066,4,-69.3,53.395,69.3
1071,4,-69.3,53.646,69.3
1076,4.5,-69.3,53.895,69.3
1081,4,-69.3,54.146,69.3
1086,4,-69.3,54.395,69.3
1091,4,-69.3,54.645,69.3
1096,4,-69.3,54.895,69.3
1101,4,-69.3,55.145,69.3
1106,4,-69.3,55.396,69.3
1111,4,-69.3,55.645,69.3
1116,4,-69.3,55.895,69.3
1121,4.5,-69.3,56.146,69.3
1126,4,-69.34,56.395,69.34
1131,4.5,-69.34,56.646,69.34
1136,4,-69.34,56.895,69.34
1141,4.5,-69.34,57.145,69.34
1146,4,-69.34,57.396,69.34
1151,4,-69.34,57.645,69.34
1156,4.5,-69.34,57.895,69.34
1161,4,-69.34,58.145,69.34
1166,4.5,-69.34,58.395,69.34
1171,4,-69.34,58.646,69.34
1176,4.5,-69.34,58.895,69.34
1181,4,-69.34,59.146,69.34
1186,4,-69.34,59.396,69.34
1191,4.5,-69.34,59.645,69.34
1196,4.5,-69.34,59.895,69.34
1201,4.5,-69.36,60.146,69.36
1206,4.5,-69.36,60.395,69.36
1211,4.5,-69.36,60.646,69.36
1216,4,-69.36,60.895,69.36
1221,4.5,-69.36,61.145,69.36
1226,4.5,-69.36,61.395,69.36
1231,4,-69.36,61.646,69.36
1236,4.5,-69.36,61.895,69.36
1241,4,-69.36,62.145,69.36
1246,4.5,-69.36,62.396,69.36
1251,4,-69.36,62.645,69.36
1256,4.5,-69.36,62.895,69.36
1261,4.5,-69.36,63.145,69.36
1266,4.5,-69.36,63.396,69.36
1271,4.5,-69.36,63.645,69.36
1276,4.5,-69.36,63.896,69.36
1281,4.5,-69.36,64.145,69.36
1286,4.5,-69.36,64.395,69.36
1291,4.5,-69.36,64.645,69.36
1296,4.5,-69.36,64.896,69.36
1301,4.5,-69.36,65.145,69.36
1306,4.5,-69.38,65.395,69.38
1311,4.5,-69.38,65.645,69.38
1316,4.5,-69.38,65.896,69.38
1321,4.5,-69.38,66.146,69.38
1326,4.5,-69.38,66.395,69.38
1331,4.5,-69.38,66.646,69.38
1336,4.5,-69.38,66.896,69.38
1341,4.5,-69.38,67.145,69.38
1346,4.5,-69.38,67.396,69.38
1351,4.5,-69.38,67.645,69.38
1356,4.5,-69.38,67.895,69.38
1361,4.5,-69.38,68.145,69.38
1366,4.5,-69.38,68.396,69.38
1371,4.5,-69.38,68.645,69.38
1376,4.5,-69.38,68.895,69.38
1381,4.5,-69.4,69.146,69.4
1386,4.5,-69.4,69.395,69.4
1391,5,-69.4,69.646,69.4
1396,4.5,-69.4,69.895,69.4
1401,4.5,-69.4,70.146,69.4
1406,5,-69.4,70.395,69.4
1411,4.5,-69.4,70.645,69.4
1416,5,-69.4,70.896,69.4
1421,4.5,-69.4,71.145,69.4
1426,5,-69.4,71.395,69.4
1431,4.5,-69.4,71.645,69.4
1436,5,-69.4,71.896,69.4
1441,4.5,-69.4,72.145,69.4
1446,4.5,-69.4,72.396,69.4
1451,4.5,-69.4,72.645,69.4
1456,4.5,-69.4,72.896,69.4
1461,5,-69.4,73.145,69.4
1466,4.5,-69.4,73.407,69.4
1471,5,-69.4,73.646,69.4
1476,4.5,-69.4,73.896,69.4
1481,4.5,-69.4,74.146,69.4
1486,5,-69.44,74.396,69.44
1491,4.5,-69.44,74.645,69.44
1496,5,-69.44,74.895,69.44
1501,4.5,-69.44,75.145,69.44
1506,5,-69.44,75.395,69.44
1511,4.5,-69.44,75.646,69.44
1516,5,-69.44,75.895,69.44
1521,5,-69.44,76.145,69.44
1526,4.5,-69.44,76.395,69.44
1531,5,-69.44,76.646,69.44
1536,4.5,-69.44,76.895,69.44
1541,5,-69.44,77.145,69.44
1546,5,-69.44,77.395,69.44
1551,5,-69.44,77.645,69.44
1556,5,-69.44,77.895,69.44
1561,5,-69.46,78.145,69.46
1566,5,-69.46,78.395,69.46
1571,5,-69.46,78.646,69.46
1576,5,-69.46,78.896,69.46
1581,4.5,-69.46,79.146,69.46
1586,5,-69.46,79.395,69.46
1591,5,-69.46,79.646,69.46
1596,5,-69.46,79.895,69.46
1601,5,-69.46,80.146,69.46
1606,5,-69.46,80.395,69.46
1611,5,-69.46,80.645,69.46
1616,5,-69.46,80.896,69.46
1621,5,-69.46,81.145,69.46
1626,5,-69.46,81.395,69.46
1631,5,-69.46,81.646,69.46
1636,5,-69.46,81.895,69.46
1641,5,-69.46,82.146,69.46
1646,5,-69.46,82.395,69.46
1651,5,-69.46,82.646,69.46
1656,5,-69.46,82.895,69.46
1661,5,-69.46,83.146,69.46
1666,5,-69.48,83.395,69.48
1671,5,-69.48,83.645,69.48
1676,5,-69.48,83.895,69.48
1681,5,-69.48,84.145,69.48
1686,5,-69.48,84.396,69.48
1691,5,-69.48,84.645,69.48
1696,5,-69.48,84.896,69.48
1701,5,-69.48,85.145,69.48
1706,5,-69.48,85.395,69.48
1711,5,-69.48,85.645,69.48
1716,5,-69.48,85.895,69.48
1721,5,-69.48,86.146,69.48
1726,5,-69.48,86.395,69.48
1731,5,-69.48,86.645,69.48
1736,5,-69.5,86.895,69.5
1741,5,-69.5,87.145,69.5
1746,5,-69.5,87.395,69.5
1751,5,-69.5,87.645,69.5
1756,5,-69.5,87.896,69.5
1761,5,-69.5,88.145,69.5
1766,5,-69.5,88.446,69.5
1771,5,-69.5,88.695,69.5
1776,5,-69.5,88.946,69.5
1781,5,-69.5,89.195,69.5
1786,5,-69.5,89.446,69.5
1791,5,-69.5,89.695,69.5
1796,5,-69.5,89.945,69.5
1801,5,-69.5,90.195,69.5
1806,5,-69.5,90.446,69.5
1811,5,-69.5,90.696,69.5
1816,5,-69.5,90.946,69.5
1821,5,-69.5,91.196,69.5
1826,5,-69.5,91.446,69.5
1831,5.5,-69.5,91.695,69.5
1836,5,-69.5,91.945,69.5
1841,5.5,-69.54,92.195,69.54
1846,5,-69.54,92.445,69.54
1851,5,-69.54,92.696,69.54
1856,5,-69.54,92.945,69.54
1861,5,-69.54,93.195,69.54
1866,5.5,-69.54,93.445,69.54
1871,5,-69.54,93.695,69.54
1876,5.5,-69.54,93.945,69.54
1881,5,-69.54,94.196,69.54
1886,5.5,-69.54,94.445,69.54
1891,5,-69.54,94.696,69.54
1896,5.5,-69.54,94.946,69.54
1901,5.5,-69.54,95.195,69.54
1906,5,-69.54,95.445,69.54
1911,5.5,-69.54,95.696,69.54
1916,5,-69.54,95.945,69.54
1921,5.5,-69.54,96.195,69.54
1926,5,-69.54,96.445,69.54
1931,5.5,-69.54,96.695,69.54
1936,5.5,-69.54,96.945,69.54
1941,5,-69.54,97.195,69.54
1946,5.5,-69.54,97.445,69.54
1951,5,-69.54,97.696,69.54
1956,5.5,-69.56,97.946,69.56
1961,5.5,-69.56,98.195,69.56
1966,5.5,-69.56,98.445,69.56
1971,5.5,-69.56,98.695,69.56
1976,5.5,-69.56,98.945,69.56
1981,5.5,-69.56,99.195,69.56
1986,5.5,-69.56,99.445,69.56
1991,5.5,-69.56,99.695,69.56
1996,5.5,-69.56,99.946,69.56
2001,5.5,-69.56,100.196,69.56
2006,5.5,-69.56,100.445,69.56
2011,5.5,-69.56,100.699,69.56
2016,5.5,-69.56,100.945,69.56
2021,5.5,-69.56,101.195,69.56
2026,5.5,-69.58,101.446,69.58
2031,5.5,-69.58,101.695,69.58
2036,5.5,-69.58,101.945,69.58
2041,5.5,-69.58,102.195,69.58
2046,5.5,-69.58,102.446,69.58
2051,5.5,-69.58,102.695,69.58
2056,5.5,-69.58,102.945,69.58
2061,5.5,-69.58,103.195,69.58
2066,5.5,-69.58,103.445,69.58
2071,5.5,-69.58,103.696,69.58
2076,6,-69.58,103.95,69.58
2081,5.5,-69.58,104.195,69.58
2086,5.5,-69.58,104.446,69.58
2091,5.5,-69.58,104.695,69.58
2096,5.5,-69.58,104.945,69.58
2101,5.5,-69.58,105.197,69.58
2106,5.5,-69.58,105.445,69.58
2111,5.5,-69.58,105.695,69.58
2116,5.5,-69.58,105.945,69.58
2121,5.5,-69.58,106.196,69.58
2126,5.5,-69.58,106.446,69.58
2131,5.5,-69.58,106.696,69.58
2136,5.5,-69.62,106.946,69.62
2141,5.5,-69.62,107.196,69.62
2146,6,-69.62,107.446,69.62
2151,5.5,-69.62,107.695,69.62
2156,6,-69.62,107.945,69.62
2161,6,-69.62,108.195,69.62
2166,5.5,-69.62,108.446,69.62
2171,6,-69.62,108.695,69.62
2176,5.5,-69.62,108.945,69.62
2181,6,-69.62,109.197,69.62
2186,5.5,-69.62,109.445,69.62
2191,6,-69.62,109.695,69.62
2196,5.5,-69.62,109.945,69.62
2201,5.5,-69.62,110.195,69.62
2206,5.5,-69.64,110.446,69.64
2211,6,-69.64,110.703,69.64
2216,6,-69.64,110.945,69.64
2221,5.5,-69.64,111.195,69.64
2226,6,-69.64,111.445,69.64
2231,5.5,-69.64,111.695,69.64
2236,6,-69.64,111.945,69.64
2241,6,-69.64,112.196,69.64
2246,5.5,-69.64,112.445,69.64
2251,6,-69.64,112.695,69.64
2256,5.5,-69.64,112.945,69.64
2261,6,-69.64,113.195,69.64
2266,6,-69.64,113.445,69.64
2271,6,-69.64,113.695,69.64
2276,6,-69.64,113.946,69.64
2281,6,-69.64,114.195,69.64
2286,6,-69.64,114.446,69.64
2291,6,-69.64,114.695,69.64
2296,6,-69.64,114.946,69.64
2301,6,-69.64,115.195,69.64
2306,6,-69.64,115.445,69.64
2311,6,-69.64,115.695,69.64
2316,6,-69.66,115.946,69.66
2321,6,-69.66,116.195,69.66
2326,6,-69.66,116.445,69.66
2331,6,-69.66,116.695,69.66
2336,6,-69.66,116.945,69.66
2341,6,-69.66,117.195,69.66
2346,6,-69.66,117.445,69.66
2351,6,-69.66,117.695,69.66
2356,6,-69.66,117.996,69.66
2361,6,-69.66,118.245,69.66
2366,6,-69.66,118.496,69.66
2371,6,-69.66,118.745,69.66
2376,6,-69.66,118.995,69.66
2381,6,-69.68,119.245,69.68
2386,6,-69.68,119.495,69.68
2391,6,-69.68,119.745,69.68
2396,6,-69.68,119.996,69.68
2401,6,-69.68,120.246,69.68
2406,6,-69.68,120.496,69.68
2411,6,-69.68,120.746,69.68
2416,6,-69.68,120.996,69.68
2421,6,-69.68,121.245,69.68
2426,6,-69.68,121.496,69.68
2431,6,-69.68,121.745,69.68
2436,6,-69.68,121.995,69.68
2441,6,-69.68,122.246,69.68
2446,6,-69.68,122.495,69.68
2451,6,-69.68,122.745,69.68
2456,6,-69.68,122.996,69.68
2461,6,-69.68,123.246,69.68
2466,6,-69.68,123.495,69.68
2471,6,-69.68,123.746,69.68
2476,6,-69.68,123.995,69.68
2481,6,-69.68,124.245,69.68
2486,6,-69.68,124.496,69.68
2491,6,-69.68,124.745,69.68
2496,6,-69.72,124.995,69.72
2501,6,-69.72,125.246,69.72
2506,6.5,-69.72,125.496,69.72
2511,6,-69.72,125.745,69.72
2516,6,-69.72,125.995,69.72
2521,6,-69.72,126.249,69.72
2526,6,-69.72,126.495,69.72
2531,6,-69.72,126.745,69.72
2536,6,-69.72,126.995,69.72
2541,6,-69.72,127.245,69.72
2546,6,-69.72,127.495,69.72
2551,6,-69.72,127.746,69.72
2556,6,-69.72,127.995,69.72
2561,6,-69.72,128.246,69.72
2566,6.5,-69.74,128.495,69.74
2571,6,-69.74,128.745,69.74
2576,6.5,-69.74,128.995,69.74
2581,6,-69.74,129.245,69.74
2586,6.5,-69.74,129.495,69.74
2591,6,-69.74,129.745,69.74
2596,6.5,-69.74,129.995,69.74
2601,6,-69.74,130.246,69.74
2606,6.5,-69.74,130.495,69.74
2611,6.5,-69.74,130.745,69.74
2616,6,-69.74,130.996,69.74
2621,6.5,-69.74,131.245,69.74
2626,6,-69.74,131.495,69.74
2631,6.5,-69.74,131.745,69.74
2636,6,-69.74,131.995,69.74
2641,6.5,-69.74,132.245,69.74
2646,6.5,-69.74,132.496,69.74
2651,6.5,-69.74,132.745,69.74
2656,6.5,-69.74,132.996,69.74
2661,6.5,-69.74,133.246,69.74
2666,6.5,-69.74,133.496,69.74
2671,6.5,-69.74,133.745,69.74
2676,6.5,-69.76,133.995,69.76
2681,6.5,-69.76,134.245,69.76
2686,6.5,-69.76,134.495,69.76
2691,6.5,-69.76,134.745,69.76
2696,6,-69.76,134.996,69.76
2701,6.5,-69.76,135.245,69.76
2706,6,-69.76,135.495,69.76
2711,6.5,-69.76,135.746,69.76
2716,6.5,-69.76,135.995,69.76
2721,6.5,-69.76,136.245,69.76
2726,6.5,-69.76,136.495,69.76
2731,6.5,-69.76,136.746,69.76
2736,6.5,-69.76,137.002,69.76
2741,6.5,-69.78,137.246,69.78
2746,6.5,-69.78,137.495,69.78
2751,6.5,-69.78,137.746,69.78
2756,6.5,-69.78,137.995,69.78
2761,6.5,-69.78,138.245,69.78
2766,6.5,-69.78,138.496,69.78
2771,6.5,-69.78,138.745,69.78
2776,6.5,-69.78,138.995,69.78
2781,6.5,-69.78,139.246,69.78
2786,6.5,-69.78,139.495,69.78
2791,6.5,-69.78,139.745,69.78
2796,6.5,-69.78,139.995,69.78
2801,6.5,-69.78,140.245,69.78
2806,6.5,-69.78,140.495,69.78
2811,6.5,-69.78,140.748,69.78
2816,6.5,-69.78,140.996,69.78
2821,7,-69.78,141.246,69.78
2826,6.5,-69.78,141.496,69.78
2831,6.5,-69.78,141.746,69.78
2836,6.5,-69.78,141.996,69.78
2841,6.5,-69.78,142.246,69.78
2846,7,-69.78,142.496,69.78
2851,6.5,-69.82,142.745,69.82
2856,7,-69.82,142.995,69.82
2861,6.5,-69.82,143.245,69.82
2866,7,-69.82,143.497,69.82
2871,6.5,-69.82,143.745,69.82
2876,6.5,-69.82,143.995,69.82
2881,6.5,-69.82,144.247,69.82
2886,6.5,-69.82,144.495,69.82
2891,7,-69.82,144.745,69.82
2896,6.5,-69.82,144.995,69.82
2901,7,-69.82,145.248,69.82
2906,6.5,-69.82,145.495,69.82
2911,6.5,-69.82,145.746,69.82
2916,7,-69.82,145.995,69.82
2921,6.5,-69.84,146.245,69.84
2926,7,-69.84,146.496,69.84
2931,6.5,-69.84,146.745,69.84
2936,7,-69.84,146.996,69.84
2941,6.5,-69.84,147.246,69.84
2946,7,-69.84,147.496,69.84
2951,7,-69.84,147.745,69.84
2956,7,-69.84,147.995,69.84
2961,7,-69.84,148.245,69.84
2966,6.5,-69.84,148.495,69.84
2971,7,-69.84,148.745,69.84
2976,7,-69.84,149.045,69.84
2981,7,-69.84,149.296,69.84
2986,6.5,-69.84,149.546,69.84
2991,7,-69.84,149.796,69.84
2996,7,-69.84,150.045,69.84
3001,7,-69.84,150.295,69.84
3006,7,-69.84,150.545,69.84
3011,7,-69.84,150.795,69.84
3016,7,-69.84,151.045,69.84
3021,7,-69.84,151.296,69.84
3026,7,-69.86,151.545,69.86
3031,7,-69.86,151.795,69.86
3036,7,-69.86,152.046,69.86
3041,7,-69.86,152.295,69.86
3046,7,-69.86,152.545,69.86
3051,7,-69.86,152.795,69.86
3056,7,-69.86,153.045,69.86
3061,7,-69.86,153.346,69.86
3066,7,-69.86,153.595,69.86
3071,7,-69.86,153.845,69.86
3076,7,-69.86,154.098,69.86
3081,7,-69.86,154.345,69.86
3086,7,-69.86,154.645,69.86
3091,7,-69.86,154.895,69.86
3096,7,-69.86,155.146,69.86
3101,7,-69.86,155.395,69.86
3106,7,-69.86,155.695,69.86
3111,7,-69.86,155.945,69.86
3116,7,-69.86,156.195,69.86
3121,7,-69.86,156.445,69.86
3126,7,-69.86,156.745,69.86
3131,7,-69.9,156.995,69.9
3136,7,-69.9,157.253,69.9
3141,7,-69.9,157.496,69.9
3146,7.5,-69.9,157.745,69.9
3151,7,-69.9,157.995,69.9
3156,7,-69.9,158.246,69.9
3161,7,-69.9,158.496,69.9
3166,7,-69.9,158.746,69.9
3171,7,-69.9,159.045,69.9
3176,7.5,-69.9,159.295,69.9
3181,7,-69.9,159.545,69.9
3186,7,-69.9,159.796,69.9
3191,7,-69.9,160.045,69.9
3196,7,-69.9,160.296,69.9
3201,7.5,-69.92,160.546,69.92
3206,7,-69.92,160.795,69.92
3211,7,-69.92,161.095,69.92
3216,7,-69.92,161.346,69.92
3221,7,-69.92,161.645,69.92
3226,7.5,-69.92,161.945,69.92
3231,7,-69.92,162.196,69.92
3236,7,-69.92,162.448,69.92
3241,7,-69.92,162.695,69.92
3246,7.5,-69.92,162.945,69.92
3251,7,-69.92,163.196,69.92
3256,7.5,-69.92,163.446,69.92
3261,7.5,-69.92,163.695,69.92
3266,7.5,-69.92,163.946,69.92
3271,7.5,-69.92,164.245,69.92
3276,7.5,-69.92,164.496,69.92
3281,7.5,-69.92,164.746,69.92
3286,7.5,-69.92,164.995,69.92
3291,7.5,-69.92,165.246,69.92
3296,7,-69.92,165.496,69.92
3301,7.5,-69.94,165.745,69.94
3306,7.5,-69.94,165.996,69.94
3311,7.5,-69.94,166.245,69.94
3316,7.5,-69.94,166.495,69.94
3321,7.5,-69.94,166.795,69.94
3326,7.5,-69.94,167.045,69.94
3331,7.5,-69.94,167.295,69.94
3336,7.5,-69.94,167.545,69.94
3341,7.5,-69.94,167.796,69.94
3346,7.5,-69.94,168.045,69.94
3351,7.5,-69.94,168.295,69.94
3356,7.5,-69.94,168.545,69.94
3361,7,-69.94,168.796,69.94
3366,7.5,-69.94,169.045,69.94
3371,7.5,-69.96,169.295,69.96
3376,7.5,-69.96,169.546,69.96
3381,7.5,-69.96,169.845,69.96
3386,7.5,-69.96,170.145,69.96
3391,8,-69.96,170.395,69.96
3396,7.5,-69.96,170.645,69.96
3401,7.5,-69.96,170.895,69.96
3406,7.5,-69.96,171.146,69.96
3411,7.5,-69.96,171.495,69.96
3416,7.5,-69.96,171.795,69.96
3421,7.5,-69.96,172.046,69.96
3426,7.5,-69.96,172.345,69.96
3431,7.5,-69.96,172.595,69.96
3436,8,-69.96,172.846,69.96
3441,8,-69.96,173.146,69.96
3446,8,-69.96,173.396,69.96
3451,7.5,-69.96,173.645,69.96
3456,8,-69.96,173.896,69.96
3461,7.5,-69.96,174.145,69.96
3466,8,-69.96,174.395,69.96
3471,7.5,-70,174.645,70
3476,8,-70,174.895,70
3481,8,-70,175.245,70
3486,7.5,-70,175.495,70
3491,8,-70,175.745,70
3496,7.5,-70,175.995,70
3501,8,-70,176.295,70
3506,7.5,-70,176.595,70
3511,8,-70,176.846,70
3516,7.5,-70,177.095,70
3521,8,-70,177.346,70
3526,8,-70,177.595,70
3531,8,-70,177.845,70
3536,7.5,-70.02,178.101,70.02
3541,8,-70.02,178.395,70.02
3546,8,-70.02,178.645,70.02
3551,8,-70.02,178.897,70.02
3556,8,-70.02,179.151,70.02
3561,8,-70.02,179.396,70.02
3566,8,-70.02,179.646,70.02
3571,8,-70.02,179.945,70.02
3576,8,-70.02,180.196,70.02
3581,8,-70.02,180.445,70.02
3586,8,-70.02,180.697,70.02
3591,8,-70.02,180.945,70.02
3596,8,-70.02,181.196,70.02
3601,8,-70.02,181.445,70.02
3606,8,-70.02,181.696,70.02
3611,8,-70.02,181.945,70.02
3616,8,-70.02,182.197,70.02
3621,8,-70.02,182.445,70.02
3626,8,-70.02,182.745,70.02
3631,8,-70.02,182.995,70.02
3636,8,-70.02,183.245,70.02
3641,8,-70.04,183.495,70.04
3646,8.5,-70.04,183.745,70.04
3651,8,-70.04,184.045,70.04
3656,8,-70.04,184.295,70.04
3661,8.5,-70.04,184.595,70.04
3666,8,-70.04,184.895,70.04
3671,8.5,-70.04,185.145,70.04
3676,8,-70.04,185.446,70.04
3681,8,-70.04,185.746,70.04
3686,8,-70.04,186.045,70.04
3691,8,-70.04,186.295,70.04
3696,8,-70.04,186.545,70.04
3701,8,-70.04,186.796,70.04
3706,8,-70.06,187.047,70.06
3711,8,-70.06,187.303,70.06
3716,8,-70.06,187.646,70.06
3721,8.5,-70.06,187.895,70.06
3726,8,-70.06,188.146,70.06
3731,8.5,-70.06,188.395,70.06
3736,8,-70.06,188.649,70.06
3741,8,-70.06,188.895,70.06
3746,8.5,-70.06,189.147,70.06
3751,8,-70.06,189.395,70.06
3756,8.5,-70.06,189.645,70.06
3761,8.5,-70.06,189.895,70.06
3766,8.5,-70.06,190.145,70.06
3771,8.5,-70.06,190.395,70.06
3776,8,-70.06,190.646,70.06
3781,8.5,-70.06,190.895,70.06
3786,8,-70.06,191.145,70.06
3791,8.5,-70.06,191.396,70.06
3796,8,-70.06,191.65,70.06
3801,8.5,-70.06,191.896,70.06
3806,8.5,-70.1,192.195,70.1
3811,8.5,-70.1,192.495,70.1
3816,8.5,-70.1,192.746,70.1
3821,8,-70.1,193.045,70.1
3826,8.5,-70.1,193.296,70.1
3831,8,-70.1,193.546,70.1
3836,8.5,-70.1,193.796,70.1
3841,8.5,-70.1,194.046,70.1
3846,8.5,-70.1,194.345,70.1
3851,8.5,-70.1,194.645,70.1
3856,8.5,-70.1,194.947,70.1
3861,8.5,-70.1,195.195,70.1
3866,8.5,-70.1,195.498,70.1
3871,8.5,-70.1,195.746,70.1
3876,8.5,-70.12,196.046,70.12
3881,8.5,-70.12,196.295,70.12
3886,8.5,-70.12,196.546,70.12
3891,8.5,-70.12,196.795,70.12
3896,8.5,-70.12,197.045,70.12
3901,8.5,-70.12,197.295,70.12
3906,8.5,-70.12,197.546,70.12
3911,8.5,-70.12,197.845,70.12
3916,9,-70.12,198.145,70.12
3921,8.5,-70.12,198.4,70.12
3926,8.5,-70.12,198.695,70.12
3931,8.5,-70.12,198.946,70.12
3936,8.5,-70.12,199.195,70.12
3941,8.5,-70.12,199.445,70.12
3946,8.5,-70.12,199.752,70.12
3951,8.5,-70.12,199.995,70.12
3956,9,-70.12,200.245,70.12
3961,8.5,-70.12,200.496,70.12
3966,9,-70.12,200.746,70.12
3971,8.5,-70.12,200.995,70.12
3976,8.5,-70.14,201.395,70.14
3981,8.5,-70.14,201.646,70.14
3986,9,-70.14,201.899,70.14
3991,9,-70.14,202.145,70.14
3996,8.5,-70.14,202.399,70.14
4001,9,-70.14,202.695,70.14
4006,9,-70.14,202.95,70.14
4011,9,-70.14,203.195,70.14
4016,9,-70.14,203.499,70.14
4021,8.5,-70.14,203.745,70.14
4026,8.5,-70.14,204.096,70.14
4031,8.5,-70.14,204.345,70.14
4036,9,-70.14,204.595,70.14
4041,8.5,-70.14,204.846,70.14
4046,8.5,-70.14,205.146,70.14
4051,8.5,-70.14,205.495,70.14
4056,9,-70.14,205.747,70.14
4061,9,-70.14,205.995,70.14
4066,8.5,-70.14,206.245,70.14
4071,9,-70.18,206.498,70.18
4076,8.5,-70.18,206.745,70.18
4081,9,-70.18,206.995,70.18
4086,8.5,-70.18,207.246,70.18
4091,9,-70.18,207.547,70.18
4096,9,-70.18,207.845,70.18
4101,9,-70.18,208.095,70.18
4106,9,-70.18,208.396,70.18
4111,9,-70.18,208.645,70.18
4116,9,-70.18,208.995,70.18
4121,9,-70.18,209.345,70.18
4126,9,-70.18,209.595,70.18
4131,9,-70.18,209.845,70.18
4136,9,-70.2,210.145,70.2
4141,9,-70.2,210.495,70.2
4146,9,-70.2,210.795,70.2
4151,9,-70.2,211.145,70.2
4156,9,-70.2,211.495,70.2
4161,9,-70.2,211.895,70.2
4166,9,-70.2,212.245,70.2
4171,9,-70.2,212.548,70.2
4176,9.5,-70.2,212.845,70.2
4181,9,-70.2,213.195,70.2
4186,9.5,-70.2,213.546,70.2
4191,9,-70.2,213.845,70.2
4196,9,-70.2,214.146,70.2
4201,9,-70.2,214.395,70.2
4206,9,-70.2,214.745,70.2
4211,9,-70.2,215.045,70.2
4216,9,-70.22,215.395,70.22
4221,9.5,-70.22,215.645,70.22
4226,9,-70.22,215.946,70.22
4231,9,-70.22,216.245,70.22
4236,9,-70.22,216.552,70.22
4241,9.5,-70.22,216.895,70.22
4246,9,-70.22,217.295,70.22
4251,9.5,-70.22,217.596,70.22
4256,9,-70.22,217.995,70.22
4261,9,-70.22,218.345,70.22
4266,9.5,-70.22,218.695,70.22
4271,9.5,-70.24,218.995,70.24
4276,9.5,-70.24,219.345,70.24
4281,9.5,-70.24,219.745,70.24
4286,9.5,-70.24,220.095,70.24
4291,9.5,-70.24,220.445,70.24
4296,9.5,-70.24,220.749,70.24
4301,9.5,-70.24,221.095,70.24
4306,9.5,-70.24,221.446,70.24
4311,9.5,-70.24,221.797,70.24
4316,9.5,-70.24,222.095,70.24
4321,9.5,-70.24,222.495,70.24
4326,9.5,-70.24,222.795,70.24
4331,9.5,-70.24,223.103,70.24
4336,9.5,-70.24,223.445,70.24
4341,9.5,-70.24,223.795,70.24
4346,9.5,-70.28,224.095,70.28
4351,10,-70.28,224.454,70.28
4356,9.5,-70.28,224.796,70.28
4361,10,-70.28,225.195,70.28
4366,10,-70.28,225.546,70.28
4371,9.5,-70.28,225.946,70.28
4376,9.5,-70.28,226.295,70.28
4381,9.5,-70.28,226.696,70.28
4386,9.5,-70.28,226.995,70.28
4391,9.5,-70.28,227.397,70.28
4396,9.5,-70.3,227.695,70.3
4401,9.5,-70.3,228.053,70.3
4406,9.5,-70.3,228.396,70.3
4411,9.5,-70.3,228.701,70.3
4416,9.5,-70.3,229.045,70.3
4421,9.5,-70.3,229.445,70.3
4426,9.5,-70.3,229.796,70.3
4431,9.5,-70.3,230.103,70.3
4436,10,-70.3,230.445,70.3
4441,9.5,-70.3,230.847,70.3
4446,9.5,-70.3,231.195,70.3
4451,9.5,-70.3,231.545,70.3
4456,10,-70.3,231.845,70.3
4461,9.5,-70.3,232.245,70.3
4466,9.5,-70.3,232.595,70.3
4471,10,-70.32,232.945,70.32
4476,10,-70.32,233.295,70.32
4481,10,-70.32,233.695,70.32
4486,10,-70.32,233.996,70.32
4491,10,-70.32,234.395,70.32
4496,10,-70.32,234.746,70.32
4501,10,-70.32,235.145,70.32
4506,10,-70.32,235.495,70.32
4511,10,-70.32,235.895,70.32
4516,10,-70.34,236.245,70.34
4521,10,-70.34,236.645,70.34
4526,10,-70.34,236.995,70.34
4531,10,-70.34,237.395,70.34
4536,10,-70.34,237.746,70.34
4541,10,-70.34,238.145,70.34
4546,10.5,-70.34,238.495,70.34
4551,10.5,-70.34,238.853,70.34
4556,10.5,-70.34,239.195,70.34
4561,10.5,-70.34,239.596,70.34
4566,10.5,-70.34,239.945,70.34
4571,10,-70.34,240.345,70.34
4576,10,-70.34,240.695,70.34
4581,10,-70.34,241.095,70.34
4586,10,-70.34,241.445,70.34
4591,10.5,-70.38,241.846,70.38
4596,10.5,-70.38,242.195,70.38
4601,10.5,-70.38,242.595,70.38
4606,10.5,-70.38,242.946,70.38
4611,10,-70.38,243.345,70.38
4616,10.5,-70.38,243.695,70.38
4621,10.5,-70.38,244.096,70.38
4626,10.5,-70.38,244.445,70.38
4631,10.5,-70.38,244.845,70.38
4636,10.5,-70.4,245.196,70.4
4641,10,-70.4,245.595,70.4
4646,10.5,-70.4,245.945,70.4
4651,10.5,-70.4,246.345,70.4
4656,10.5,-70.4,246.696,70.4
4661,10.5,-70.4,247.095,70.4
4666,10.5,-70.4,247.445,70.4
4671,10,-70.4,247.845,70.4
4676,10.5,-70.4,248.196,70.4
4681,11,-70.4,248.596,70.4
4686,11,-70.4,248.946,70.4
4691,10.5,-70.4,249.346,70.4
4696,10.5,-70.4,249.696,70.4
4701,10.5,-70.4,250.096,70.4
4706,10.5,-70.42,250.445,70.42
4711,11,-70.42,250.845,70.42
4716,11,-70.42,251.195,70.42
4721,10.5,-70.42,251.595,70.42
4726,10.5,-70.42,251.945,70.42
4731,10.5,-70.42,252.346,70.42
4736,10.5,-70.42,252.695,70.42
4741,11,-70.42,253.095,70.42
4746,11,-70.42,253.445,70.42
4751,11,-70.42,253.845,70.42
4756,11,-70.44,254.195,70.44
4761,11,-70.44,254.595,70.44
4766,11,-70.44,254.945,70.44
4771,11,-70.44,255.345,70.44
4776,11,-70.44,255.695,70.44
4781,11,-70.44,256.095,70.44
4786,11,-70.44,256.445,70.44
4791,11,-70.44,256.847,70.44
4796,11,-70.44,257.195,70.44
4801,11,-70.44,257.596,70.44
4806,11,-70.44,257.946,70.44
4811,11,-70.44,258.345,70.44
4816,11,-70.44,258.696,70.44
4821,11,-70.44,259.095,70.44
4826,11,-70.48,259.445,70.48
4831,11,-70.48,259.845,70.48
4836,11,-70.48,260.195,70.48
4841,11,-70.48,260.595,70.48
4846,11,-70.48,260.945,70.48
4851,11,-70.48,261.346,70.48
4856,11,-70.48,261.695,70.48
4861,11.5,-70.48,262.096,70.48
4866,11,-70.48,262.445,70.48
4871,11,-70.48,262.845,70.48
4876,11,-70.48,263.196,70.48
4881,11,-70.48,263.595,70.48
4886,11,-70.48,263.946,70.48
4891,11.5,-70.5,264.347,70.5
4896,11.5,-70.5,264.695,70.5
4901,11.5,-70.5,265.095,70.5
4906,11.5,-70.5,265.445,70.5
4911,11,-70.5,265.846,70.5
4916,11,-70.5,266.195,70.5
4921,11.5,-70.5,266.595,70.5
4926,11.5,-70.5,266.945,70.5
4931,11.5,-70.5,267.345,70.5
4936,11.5,-70.5,267.695,70.5
4941,11.5,-70.52,268.095,70.52
4946,11.5,-70.52,268.445,70.52
4951,11.5,-70.52,268.845,70.52
4956,11.5,-70.52,269.195,70.52
4961,11.5,-70.52,269.595,70.52
4966,11.5,-70.52,269.945,70.52
4971,11.5,-70.52,270.346,70.52
4976,11.5,-70.52,270.695,70.52
4981,11.5,-70.52,271.096,70.52
4986,12,-70.52,271.446,70.52
4991,11.5,-70.52,271.845,70.52
4996,12,-70.52,272.196,70.52
5001,11.5,-70.52,272.595,70.52
5006,11.5,-70.52,272.945,70.52
5011,11.5,-70.56,273.345,70.56
5016,11.5,-70.56,273.696,70.56
5021,12,-70.56,274.096,70.56
5026,12,-70.56,274.445,70.56
5031,12,-70.56,274.846,70.56
5036,12,-70.56,275.195,70.56
5041,11.5,-70.56,275.596,70.56
5046,12,-70.56,275.946,70.56
5051,12,-70.56,276.346,70.56
5056,12,-70.58,276.695,70.58
5061,12,-70.58,277.096,70.58
5066,12,-70.58,277.445,70.58
5071,11.5,-70.58,277.845,70.58
5076,11.5,-70.58,278.195,70.58
5081,12,-70.58,278.595,70.58
5086,12,-70.58,278.946,70.58
5091,12,-70.58,279.346,70.58
5096,12,-70.58,279.695,70.58
5101,12,-70.58,280.095,70.58
5106,12,-70.58,280.446,70.58
5111,12,-70.58,280.845,70.58
5116,12,-70.58,281.195,70.58
5121,12,-70.58,281.596,70.58
5126,12,-70.6,281.946,70.6
5131,12,-70.6,282.346,70.6
5136,12,-70.6,282.696,70.6
5141,12.5,-70.6,283.095,70.6
5146,12.5,-70.6,283.445,70.6
5151,12,-70.6,283.845,70.6
5156,12,-70.6,284.195,70.6
5161,12,-70.6,284.595,70.6
5166,12,-70.6,284.945,70.6
5171,12.5,-70.6,285.345,70.6
5176,12.5,-70.62,285.695,70.62
5181,12,-70.62,286.095,70.62
5186,12,-70.62,286.445,70.62
5191,12,-70.62,286.845,70.62
5196,12,-70.62,287.195,70.62
5201,12.5,-70.62,287.595,70.62
5206,12.5,-70.62,287.945,70.62
5211,12.5,-70.62,288.346,70.62
5216,12.5,-70.62,288.695,70.62
5221,12.5,-70.62,289.095,70.62
5226,12,-70.62,289.445,70.62
5231,13,-70.62,289.845,70.62
5236,12.5,-70.62,290.195,70.62
5241,12.5,-70.62,290.595,70.62
5246,12.5,-70.66,290.945,70.66
5251,12.5,-70.66,291.346,70.66
5256,12.5,-70.66,291.696,70.66
5261,13,-70.66,292.096,70.66
5266,13,-70.66,292.446,70.66
5271,12.5,-70.66,292.845,70.66
5276,13,-70.66,293.195,70.66
5281,12.5,-70.66,293.595,70.66
5286,12.5,-70.66,293.945,70.66
5291,13,-70.68,294.345,70.68
5296,13,-70.68,294.695,70.68
5301,13,-70.68,295.095,70.68
5306,13,-70.68,295.445,70.68
5311,13,-70.68,295.845,70.68
5316,13,-70.68,296.195,70.68
5321,13,-70.68,296.595,70.68
5326,13,-70.68,296.945,70.68
5331,13,-70.68,297.345,70.68
5336,13,-70.68,297.695,70.68
5341,13,-70.68,298.095,70.68
5346,13,-70.68,298.445,70.68
5351,13,-70.68,298.845,70.68
5356,13,-70.68,299.195,70.68
5361,13,-70.7,299.595,70.7
5366,13,-70.7,299.945,70.7
5371,13,-70.7,300.345,70.7
5376,13,-70.7,300.696,70.7
5381,13.5,-70.7,301.095,70.7
5386,13,-70.7,301.445,70.7
5391,13,-70.7,301.845,70.7
5396,13,-70.7,302.196,70.7
5401,13,-70.7,302.596,70.7
5406,13,-70.7,302.945,70.7
5411,13.5,-70.72,303.345,70.72
5416,13.5,-70.72,303.695,70.72
5421,13.5,-70.72,304.095,70.72
5426,13.5,-70.72,304.445,70.72
5431,13.5,-70.72,304.845,70.72
5436,13,-70.72,305.196,70.72
5441,13.5,-70.72,305.595,70.72
5446,13.5,-70.72,305.945,70.72
5451,13.5,-70.72,306.346,70.72
5456,13.5,-70.72,306.695,70.72
5461,13.5,-70.72,307.095,70.72
5466,13.5,-70.72,307.445,70.72
5471,13,-70.72,307.845,70.72
5476,13,-70.72,308.195,70.72
5481,13.5,-70.76,308.595,70.76
5486,13.5,-70.76,308.946,70.76
5491,13.5,-70.76,309.345,70.76
5496,13.5,-70.76,309.695,70.76
5501,13.5,-70.76,310.096,70.76
5506,13.5,-70.76,310.445,70.76
5511,13.5,-70.76,310.845,70.76
5516,13.5,-70.76,311.196,70.76
5521,13.5,-70.76,311.596,70.76
5526,13.5,-70.78,311.945,70.78
5531,13.5,-70.78,312.345,70.78
5536,14,-70.78,312.695,70.78
5541,14,-70.78,313.095,70.78
5546,14,-70.78,313.445,70.78
5551,13.5,-70.78,313.845,70.78
5556,13.5,-70.78,314.196,70.78
5561,13.5,-70.78,314.595,70.78
5566,14,-70.78,314.945,70.78
5571,14,-70.78,315.345,70.78
5576,14,-70.78,315.695,70.78
5581,14,-70.78,316.095,70.78
5586,14,-70.78,316.445,70.78
5591,13.5,-70.78,316.845,70.78
5596,13.5,-70.8,317.196,70.8
5601,14,-70.8,317.595,70.8
5606,14,-70.8,317.945,70.8
5611,14,-70.8,318.345,70.8
5616,14,-70.8,318.695,70.8
5621,14,-70.8,319.095,70.8
5626,14,-70.8,319.446,70.8
5631,14.5,-70.8,319.845,70.8
5636,14.5,-70.8,320.195,70.8
5641,14,-70.8,320.596,70.8
5646,14,-70.8,320.945,70.8
5651,14,-70.8,321.345,70.8
5656,14,-70.8,321.695,70.8
5661,14.5,-70.8,322.095,70.8
5666,14.5,-70.84,322.445,70.84
5671,14,-70.84,322.846,70.84
5676,14.5,-70.84,323.195,70.84
5681,14,-70.84,323.595,70.84
5686,14,-70.84,323.945,70.84
5691,14.5,-70.84,324.345,70.84
5696,14.5,-70.84,324.695,70.84
5701,14.5,-70.84,325.096,70.84
5706,14,-70.84,325.445,70.84
5711,14,-70.84,325.845,70.84
5716,14,-70.86,326.196,70.86
5721,14.5,-70.86,326.595,70.86
5726,14.5,-70.86,326.946,70.86
5731,14.5,-70.86,327.346,70.86
5736,14.5,-70.86,327.695,70.86
5741,14.5,-70.86,328.095,70.86
5746,14,-70.86,328.445,70.86
5751,14.5,-70.86,328.845,70.86
5756,14.5,-70.86,329.195,70.86
5761,14.5,-70.86,329.595,70.86
5766,14.5,-70.86,329.945,70.86
5771,14.5,-70.86,330.345,70.86
5776,14.5,-70.86,330.696,70.86
5781,15,-70.88,331.095,70.88
5786,15,-70.88,331.446,70.88
5791,15,-70.88,331.846,70.88
5796,15,-70.88,332.196,70.88
5801,14.5,-70.88,332.595,70.88
5806,14.5,-70.88,332.946,70.88
5811,15,-70.88,333.345,70.88
5816,15,-70.88,333.696,70.88
5821,15,-70.88,334.095,70.88
5826,15,-70.88,334.445,70.88
5831,15,-70.9,334.845,70.9
5836,15,-70.9,335.195,70.9
5841,15,-70.9,335.596,70.9
5846,15,-70.9,335.946,70.9
5851,15,-70.9,336.346,70.9
5856,15,-70.9,336.695,70.9
5861,15,-70.9,337.095,70.9
5866,15,-70.9,337.445,70.9
5871,15,-70.9,337.846,70.9
5876,15.5,-70.9,338.195,70.9
5881,15,-70.9,338.595,70.9
5886,15,-70.9,338.945,70.9
5891,15,-70.9,339.345,70.9
5896,15,-70.9,339.696,70.9
5901,15.5,-70.94,340.095,70.94
5906,15.5,-70.94,340.445,70.94
5911,15.5,-70.94,340.845,70.94
5916,15.5,-70.94,341.195,70.94
5921,15,-70.94,341.595,70.94
5926,15,-70.94,341.946,70.94
5931,15.5,-70.94,342.345,70.94
5936,15,-70.94,342.695,70.94
5941,15.5,-70.94,343.096,70.94
5946,15.5,-70.94,343.446,70.94
5951,15.5,-70.96,343.846,70.96
5956,15.5,-70.96,344.196,70.96
5961,15.5,-70.96,344.595,70.96
5966,15,-70.96,344.945,70.96
5971,16,-70.96,345.345,70.96
5976,15.5,-70.96,345.695,70.96
5981,15.5,-70.96,346.095,70.96
5986,15.5,-70.96,346.446,70.96
5991,15.5,-70.96,346.845,70.96
5996,15.5,-70.96,347.195,70.96
6001,16,-70.96,347.596,70.96
6006,16,-70.96,347.945,70.96
6011,15.5,-70.96,348.346,70.96
6016,15.5,-70.96,348.695,70.96
6021,15.5,-70.98,349.095,70.98
6026,15.5,-70.98,349.445,70.98
6031,16,-70.98,349.845,70.98
6036,16,-70.98,350.195,70.98
6041,16,-70.98,350.596,70.98
6046,16,-70.98,350.945,70.98
6051,15.5,-70.98,351.345,70.98
6056,15.5,-70.98,351.695,70.98
6061,16,-70.98,352.095,70.98
6066,16,-71,352.445,71
6071,16,-71,352.846,71
6076,16,-71,353.196,71
6081,16,-71,353.595,71
6086,16,-71,353.945,71
6091,16,-71,354.345,71
6096,16.5,-71,354.695,71
6101,16,-71,355.095,71
6106,16,-71,355.445,71
6111,15,-71,355.846,71
6116,15.5,-71,356.195,71
6121,16,-71,356.595,71
6126,16,-71,356.945,71
6131,16,-71,357.345,71
6136,16,-71,357.696,71
6141,16,-71.04,358.095,71.04
6146,16,-71.04,358.445,71.04
6151,16.5,-71.04,358.845,71.04
6156,16.5,-71.04,359.195,71.04
6161,16.5,-71.04,359.595,71.04
6166,16.5,-71.04,359.945,71.04
6171,16,-71.04,360.345,71.04
6176,16,-71.04,360.695,71.04
6181,16.5,-71.04,361.095,71.04
6186,17,-71.06,361.445,71.06
6191,16.5,-71.06,361.846,71.06
6196,16.5,-71.06,362.195,71.06
6201,16.5,-71.06,362.595,71.06
6206,16.5,-71.06,362.945,71.06
6211,17,-71.06,363.345,71.06
6216,17,-71.06,363.745,71.06
6221,16.5,-71.06,364.146,71.06
6226,16.5,-71.06,364.495,71.06
6231,17,-71.06,364.895,71.06
6236,17,-71.06,365.246,71.06
6241,17,-71.06,365.645,71.06
6246,17,-71.06,365.995,71.06
6251,17,-71.06,366.395,71.06
6256,17,-71.08,366.746,71.08
6261,17,-71.08,367.146,71.08
6266,17,-71.08,367.495,71.08
6271,17,-71.08,367.896,71.08
6276,17,-71.08,368.245,71.08
6281,17,-71.08,368.645,71.08
6286,17,-71.08,368.995,71.08
6291,17.5,-71.08,369.396,71.08
6296,17,-71.08,369.746,71.08
6301,17,-71.1,370.145,71.1
6306,17.5,-71.1,370.496,71.1
6311,17,-71.1,370.895,71.1
6316,17,-71.1,371.245,71.1
6321,17.5,-71.1,371.645,71.1
6326,17.5,-71.1,371.995,71.1
6331,17.5,-71.1,372.396,71.1
6336,17.5,-71.1,372.745,71.1
6341,17,-71.1,373.146,71.1
6346,17,-71.1,373.496,71.1
6351,17.5,-71.1,373.896,71.1
6356,17,-71.1,374.246,71.1
6361,17.5,-71.1,374.645,71.1
6366,17.5,-71.1,374.995,71.1
6371,17.5,-71.1,375.395,71.1
6376,17.5,-71.14,375.745,71.14
6381,17.5,-71.14,376.145,71.14
6386,17.5,-71.14,376.495,71.14
6391,17.5,-71.14,376.895,71.14
6396,17.5,-71.14,377.245,71.14
6401,17.5,-71.14,377.645,71.14
6406,17.5,-71.14,377.996,71.14
6411,18,-71.14,378.395,71.14
6416,17.5,-71.14,378.745,71.14
6421,18,-71.14,379.145,71.14
6426,18,-71.14,379.495,71.14
6431,17.5,-71.14,379.896,71.14
6436,18,-71.14,380.245,71.14
6441,18,-71.14,380.645,71.14
6446,17.5,-71.16,380.995,71.16
6451,18,-71.16,381.395,71.16
6456,18,-71.16,381.746,71.16
6461,18,-71.16,382.146,71.16
6466,18,-71.16,382.496,71.16
6471,18,-71.16,382.895,71.16
6476,18,-71.16,383.295,71.16
6481,18,-71.16,383.695,71.16
6486,18,-71.16,384.046,71.16
6491,18,-71.16,384.445,71.16
6496,18,-71.18,384.795,71.18
6501,18.5,-71.18,385.195,71.18
6506,18.5,-71.18,385.545,71.18
6511,18,-71.18,385.945,71.18
6516,18,-71.18,386.295,71.18
6521,18,-71.18,386.695,71.18
6526,18,-71.18,387.045,71.18
6531,18.5,-71.18,387.446,71.18
6536,18.5,-71.18,387.795,71.18
6541,18.5,-71.18,388.195,71.18
6546,18.5,-71.18,388.545,71.18
6551,18,-71.18,388.946,71.18
6556,18,-71.18,389.296,71.18
6561,19,-71.22,389.696,71.22
6566,19,-71.22,390.045,71.22
6571,18.5,-71.22,390.445,71.22
6576,18.5,-71.22,390.795,71.22
6581,18.5,-71.22,391.195,71.22
6586,18.5,-71.22,391.545,71.22
6591,19,-71.22,391.945,71.22
6596,19,-71.22,392.295,71.22
6601,19,-71.22,392.695,71.22
6606,19,-71.22,393.045,71.22
6611,18.5,-71.24,393.445,71.24
6616,18.5,-71.24,393.795,71.24
6621,19,-71.24,394.195,71.24
6626,19,-71.24,394.545,71.24
6631,19,-71.24,394.945,71.24
6636,19,-71.24,395.295,71.24
6641,18.5,-71.24,395.695,71.24
6646,19,-71.24,396.045,71.24
6651,19,-71.24,396.446,71.24
6656,19,-71.24,396.795,71.24
6661,19,-71.24,397.195,71.24
6666,19,-71.24,397.545,71.24
6671,19,-71.24,397.945,71.24
6676,19,-71.24,398.295,71.24
6681,19.5,-71.26,398.696,71.26
6686,19.5,-71.26,399.045,71.26
6691,19.5,-71.26,399.445,71.26
6696,19.5,-71.26,399.795,71.26
6701,19,-71.26,400.197,71.26
6706,19,-71.26,400.545,71.26
6711,19.5,-71.26,400.946,71.26
6716,19.5,-71.26,401.296,71.26
6721,19.5,-71.26,401.695,71.26
6726,19.5,-71.26,402.045,71.26
6731,19,-71.28,402.448,71.28
6736,19.5,-71.28,402.795,71.28
6741,19.5,-71.28,403.195,71.28
6746,19,-71.28,403.546,71.28
6748,19.5,,,